# Annual average marine heatwave statistics at Hamburg
# A value of nan indicates mising data. This should correspond to a year with no MHW events (count = 0)
Year, MHW event count [number], Duration [days], Maximum intensity [deg C], Mean intensity [deg C], Cumulative intensity [deg C x days], Total MHW days [days], Total cumulative intensity [deg C x days], Intensity variability [deg C], Rate of onset [deg C / days], Rate of decline [deg C / days], Maximum intensity (rel. thresh.) [deg C], Mean intensity (rel. thresh.) [deg C], Cumulative intensity (rel. thresh.) [deg C x days], Intensity variability (rel. thresh.) [deg C], Maximum intensity (absolute) [deg C], Mean intensity (absolute) [deg C], Cumulative intensity (absolute) [deg C x days], Intensity variability (absolute) [deg C], Maximum intensity (normalized) [unitless], Mean intensity (normalized) [unitless], Mean temperature [deg C], Max temperature [deg C], Min temperature [deg C]
1982, 0, nan, nan, nan, nan, 0.0, 0.0, nan, nan, nan, nan, nan, nan, nan, nan, nan, nan, nan, nan, nan, 19.64, 24.47, 14.76
1983, 2, 11.0, 2.686, 2.058, 22.64, 22.0, 45.27, 0.3465, 0.2987, 0.002301, 0.9308, 0.3016, 3.29, 0.3472, 25.61, 24.91, 273.4, 0.3955, 1.53, 1.172, 20.76, 26.05, 15.24
1984, 2, 6.0, 2.267, 1.922, 11.53, 12.0, 23.07, 0.2738, 0.3248, 0.001518, 0.7928, 0.4453, 2.672, 0.2784, 24.02, 23.67, 142.0, 0.2887, 1.545, 1.306, 20.01, 25.23, 15.03
1985, 2, 6.0, 1.732, 1.525, 9.322, 12.0, 18.64, 0.1486, 0.2817, 0.0004584, 0.4305, 0.2227, 1.425, 0.1457, 22.03, 21.83, 131.4, 0.1737, 1.327, 1.167, 21.57, 25.56, 18.33
1986, 1, 5.0, 1.703, 1.496, 7.48, 5.0, 7.48, 0.1432, 0.3281, 0.000328, 0.4993, 0.2906, 1.453, 0.1442, 21.64, 21.42, 107.1, 0.1534, 1.415, 1.241, 21.75, 25.49, 17.69
1987, 1, 15.0, 2.322, 1.791, 26.86, 15.0, 26.86, 0.2848, 0.1593, 0.0005793, 1.038, 0.5036, 7.554, 0.2904, 21.99, 21.47, 322.0, 0.2751, 1.809, 1.392, 21.7, 25.61, 18.47
1988, 2, 9.5, 2.448, 1.956, 17.91, 19.0, 35.82, 0.3207, 0.3012, 0.0004496, 1.156, 0.6597, 5.685, 0.3234, 22.41, 21.95, 206.7, 0.3004, 1.895, 1.508, 21.98, 25.24, 18.41
1989, 1, 5.0, 2.092, 1.658, 8.292, 5.0, 8.292, 0.2397, 0.1921, 0.000175, 0.7865, 0.3518, 1.759, 0.2404, 22.08, 21.6, 108.0, 0.2681, 1.602, 1.269, 21.99, 25.8, 18.07
1990, 2, 7.5, 2.197, 1.977, 15.3, 15.0, 30.6, 0.1864, 0.1571, 0.0001944, 0.6869, 0.4629, 3.59, 0.188, 23.93, 23.71, 181.2, 0.1813, 1.454, 1.305, 21.74, 26.24, 16.75
1991, 4, 8.25, 2.508, 2.277, 19.14, 33.0, 76.58, 0.2112, 0.1872, 0.0002291, 0.6861, 0.4581, 3.884, 0.2024, 25.07, 24.87, 207.5, 0.205, 1.376, 1.251, 22.18, 26.29, 18.22
1992, 3, 11.67, 2.339, 2.007, 25.84, 35.0, 77.51, 0.2275, 0.1445, 0.0002298, 0.7696, 0.4319, 6.09, 0.2286, 24.51, 24.22, 285.3, 0.2557, 1.474, 1.271, 22.08, 25.83, 17.95
1993, 5, 7.0, 2.187, 1.952, 13.81, 35.0, 69.04, 0.1693, 0.2568, 0.0001703, 0.7341, 0.497, 3.498, 0.1705, 23.27, 23.01, 161.8, 0.1769, 1.516, 1.353, 22.3, 25.65, 18.04
1994, 2, 5.5, 2.024, 1.793, 9.955, 11.0, 19.91, 0.158, 0.307, 0.0001094, 0.5095, 0.2754, 1.501, 0.1598, 23.74, 23.48, 130.1, 0.1789, 1.343, 1.188, 21.72, 25.77, 17.64
1995, 3, 7.0, 1.867, 1.729, 12.22, 21.0, 36.67, 0.1026, 0.1308, 6.883e-05, 0.3039, 0.1739, 1.263, 0.09827, 23.29, 23.11, 162.1, 0.1324, 1.19, 1.107, 21.71, 25.58, 16.52
1996, 1, 5.0, 2.078, 1.934, 9.671, 5.0, 9.671, 0.08004, 0.1979, 8.247e-05, 0.2844, 0.1471, 0.7356, 0.07591, 24.39, 24.28, 121.4, 0.07359, 1.159, 1.082, 21.9, 25.96, 17.83
1997, 3, 7.667, 2.126, 1.863, 14.34, 23.0, 43.02, 0.1693, 0.2747, 0.000131, 0.6611, 0.4045, 3.306, 0.1696, 23.53, 23.28, 176.9, 0.1809, 1.468, 1.285, 21.89, 25.87, 17.92
1998, 1, 5.0, 2.004, 1.897, 9.483, 5.0, 9.483, 0.1112, 0.1034, 5.541e-05, 0.3849, 0.2542, 1.271, 0.1255, 24.85, 24.67, 123.3, 0.1547, 1.238, 1.155, 22.14, 25.43, 18.51
1999, 12, 8.167, 2.458, 2.109, 17.74, 98.0, 212.8, 0.2468, 0.2745, 0.0001333, 0.8626, 0.5178, 4.702, 0.2421, 24.65, 24.3, 198.9, 0.2604, 1.55, 1.331, 22.73, 26.64, 18.62
2000, 5, 15.8, 2.588, 2.223, 34.91, 79.0, 174.5, 0.2285, 0.1909, 0.0001476, 0.8976, 0.539, 10.38, 0.2179, 25.62, 25.18, 386.2, 0.2722, 1.563, 1.339, 22.64, 26.94, 18.28
2001, 2, 8.0, 2.567, 2.203, 17.85, 16.0, 35.71, 0.2829, 0.6516, 0.0001271, 0.8116, 0.4623, 3.894, 0.2817, 24.9, 24.5, 196.8, 0.2777, 1.461, 1.263, 22.01, 25.75, 17.29
2002, 2, 5.0, 2.554, 2.182, 10.91, 10.0, 21.82, 0.3226, 0.5522, 0.0001085, 0.9654, 0.5979, 2.989, 0.3187, 24.36, 24.01, 120.0, 0.3093, 1.73, 1.455, 21.92, 26.01, 18.57
2003, 2, 11.0, 2.63, 2.243, 25.21, 22.0, 50.42, 0.2438, 0.2232, 0.0001451, 0.8069, 0.4245, 5.064, 0.235, 25.42, 25.01, 277.5, 0.2685, 1.439, 1.229, 21.79, 26.62, 17.29
2004, 1, 5.0, 2.256, 2.016, 10.08, 5.0, 10.08, 0.2371, 0.1502, 4.16e-05, 0.6732, 0.4595, 2.298, 0.2191, 23.85, 23.54, 117.7, 0.2838, 1.425, 1.294, 21.85, 25.5, 18.29
2005, 2, 8.0, 2.634, 2.344, 18.68, 16.0, 37.35, 0.219, 0.1162, 4.563e-05, 0.6902, 0.3963, 3.13, 0.217, 26.28, 26.0, 207.9, 0.2132, 1.355, 1.203, 21.79, 26.34, 17.85
2006, 8, 10.25, 2.357, 1.997, 20.49, 82.0, 163.9, 0.2225, 0.1537, 9.107e-05, 0.7566, 0.3968, 4.045, 0.2186, 24.42, 24.04, 247.2, 0.237, 1.478, 1.248, 22.47, 26.22, 18.36
2007, 2, 8.0, 2.846, 2.29, 18.3, 16.0, 36.61, 0.3835, 1.108, 0.0001949, 1.158, 0.6064, 5.067, 0.3749, 26.07, 25.45, 204.6, 0.4294, 1.691, 1.365, 21.84, 26.48, 17.11
2008, 1, 10.0, 3.183, 2.508, 25.08, 10.0, 25.08, 0.2852, 0.8272, 0.000131, 1.5, 0.7687, 7.687, 0.3095, 26.92, 26.26, 262.6, 0.2832, 1.891, 1.445, 21.37, 26.92, 17.26
2009, 0, nan, nan, nan, nan, 0.0, 0.0, nan, nan, nan, nan, nan, nan, nan, nan, nan, nan, nan, nan, nan, 20.99, 25.7, 15.93
2010, 3, 5.0, 2.627, 2.193, 10.96, 15.0, 32.89, 0.365, 0.3781, 0.0001436, 0.9264, 0.4875, 2.437, 0.3679, 25.01, 24.57, 122.9, 0.3643, 1.505, 1.269, 21.3, 27.19, 16.4
2011, 1, 5.0, 1.813, 1.687, 8.435, 5.0, 8.435, 0.09147, 0.3099, 5.235e-05, 0.5105, 0.3801, 1.901, 0.09304, 21.51, 21.4, 107.0, 0.08663, 1.392, 1.291, 21.18, 25.39, 16.97
2012, 3, 5.333, 2.471, 2.132, 11.4, 16.0, 34.2, 0.2455, 0.6146, 7.603e-05, 0.8905, 0.5534, 2.923, 0.2385, 24.55, 24.23, 129.8, 0.2326, 1.561, 1.345, 22.0, 26.29, 18.11
2013, 3, 8.667, 2.96, 2.248, 18.94, 26.0, 56.83, 0.4163, 0.3624, 0.0001056, 1.234, 0.5136, 4.435, 0.4186, 25.33, 24.63, 210.5, 0.4264, 1.713, 1.292, 21.83, 27.43, 17.54
2014, 1, 11.0, 2.499, 2.247, 24.72, 11.0, 24.72, 0.2367, 0.1466, 6.552e-05, 1.184, 0.9408, 10.35, 0.2352, 22.74, 22.38, 246.2, 0.2885, 1.901, 1.72, 21.3, 26.45, 16.39
