# Annual average marine heatwave statistics at Hout_Bay
# A value of nan indicates mising data. This should correspond to a year with no MHW events (count = 0)
Year, MHW event count [number], Duration [days], Maximum intensity [deg C], Mean intensity [deg C], Cumulative intensity [deg C x days], Total MHW days [days], Total cumulative intensity [deg C x days], Intensity variability [deg C], Rate of onset [deg C / days], Rate of decline [deg C / days], Maximum intensity (rel. thresh.) [deg C], Mean intensity (rel. thresh.) [deg C], Cumulative intensity (rel. thresh.) [deg C x days], Intensity variability (rel. thresh.) [deg C], Maximum intensity (absolute) [deg C], Mean intensity (absolute) [deg C], Cumulative intensity (absolute) [deg C x days], Intensity variability (absolute) [deg C], Maximum intensity (normalized) [unitless], Mean intensity (normalized) [unitless], Mean temperature [deg C], Max temperature [deg C], Min temperature [deg C]
1982, 0, nan, nan, nan, nan, 0.0, 0.0, nan, nan, nan, nan, nan, nan, nan, nan, nan, nan, nan, nan, nan, 14.92, 19.87, 12.29
1983, 0, nan, nan, nan, nan, 0.0, 0.0, nan, nan, nan, nan, nan, nan, nan, nan, nan, nan, nan, nan, nan, 15.19, 19.81, 12.25
1984, 2, 6.0, 1.927, 1.654, 9.923, 12.0, 19.85, 0.1973, 0.2919, 0.0007836, 0.558, 0.3103, 1.862, 0.1785, 17.73, 17.45, 104.7, 0.2097, 1.416, 1.228, 15.65, 19.23, 12.9
1985, 0, nan, nan, nan, nan, 0.0, 0.0, nan, nan, nan, nan, nan, nan, nan, nan, nan, nan, nan, nan, nan, 16.36, 19.4, 13.47
1986, 7, 8.429, 1.716, 1.337, 11.15, 59.0, 78.02, 0.2154, 0.1906, 0.0004343, 0.7228, 0.3424, 2.843, 0.2139, 16.84, 16.47, 138.3, 0.2155, 1.706, 1.334, 16.93, 19.81, 15.04
1987, 3, 6.0, 2.166, 1.892, 11.67, 18.0, 35.01, 0.2029, 0.1967, 0.0003243, 0.6046, 0.3279, 2.038, 0.2086, 18.65, 18.38, 111.4, 0.1979, 1.372, 1.203, 16.73, 20.46, 14.18
1988, 1, 5.0, 1.932, 1.494, 7.471, 5.0, 7.471, 0.2885, 0.8704, 0.0003332, 0.823, 0.3639, 1.82, 0.3012, 17.41, 17.03, 85.17, 0.2535, 1.742, 1.325, 16.13, 20.11, 13.9
1989, 2, 6.5, 1.298, 1.213, 7.82, 13.0, 15.64, 0.06583, 0.1182, 0.0001075, 0.3775, 0.2909, 1.842, 0.06662, 16.31, 16.23, 105.4, 0.06891, 1.41, 1.315, 16.11, 19.74, 13.15
1990, 1, 5.0, 2.398, 2.224, 11.12, 5.0, 11.12, 0.2156, 0.1667, 0.0002194, 0.7193, 0.5421, 2.711, 0.2173, 18.45, 18.35, 91.75, 0.1821, 1.429, 1.322, 15.73, 18.7, 12.95
1991, 2, 14.5, 2.541, 2.047, 31.04, 29.0, 62.07, 0.2631, 0.3092, 0.0002545, 0.9205, 0.447, 7.229, 0.2505, 18.61, 18.04, 263.9, 0.3096, 1.569, 1.275, 16.39, 19.52, 12.64
1992, 3, 18.33, 3.207, 2.523, 51.97, 55.0, 155.9, 0.4374, 0.2618, 0.0003925, 1.446, 0.8043, 19.19, 0.4064, 20.69, 20.05, 377.6, 0.4133, 1.801, 1.454, 17.0, 22.3, 13.71
1993, 2, 12.0, 3.25, 2.406, 28.79, 24.0, 57.59, 0.4275, 0.6505, 0.0003429, 1.461, 0.6047, 6.692, 0.4391, 21.0, 20.07, 238.7, 0.4538, 1.822, 1.342, 16.7, 21.28, 13.39
1994, 4, 13.75, 1.994, 1.493, 21.28, 55.0, 85.11, 0.2534, 0.1655, 0.0001663, 0.8485, 0.3354, 5.014, 0.2531, 17.57, 17.12, 236.7, 0.2837, 1.734, 1.287, 16.36, 18.92, 13.57
1995, 2, 13.5, 2.46, 2.182, 29.6, 27.0, 59.2, 0.1404, 0.09293, 9.222e-05, 0.5486, 0.3041, 4.27, 0.1261, 20.26, 20.01, 272.0, 0.1354, 1.286, 1.162, 16.63, 20.73, 14.19
1996, 0, nan, nan, nan, nan, 0.0, 0.0, nan, nan, nan, nan, nan, nan, nan, nan, nan, nan, nan, nan, nan, 15.66, 19.33, 13.5
1997, 2, 6.0, 2.27, 2.082, 12.49, 12.0, 24.99, 0.1383, 0.1359, 7.857e-05, 0.4796, 0.2814, 1.688, 0.1388, 19.17, 19.01, 114.1, 0.1401, 1.266, 1.158, 16.06, 20.4, 13.08
1998, 4, 7.5, 2.513, 2.267, 16.9, 30.0, 67.61, 0.1627, 0.1939, 9.102e-05, 0.6336, 0.4022, 2.811, 0.1524, 19.81, 19.56, 148.1, 0.1605, 1.338, 1.216, 16.7, 20.51, 14.0
1999, 1, 7.0, 1.859, 1.392, 9.742, 7.0, 9.742, 0.3203, 0.2524, 0.000156, 0.9326, 0.4643, 3.25, 0.3203, 16.76, 16.29, 114.0, 0.3195, 2.006, 1.501, 16.61, 19.77, 13.59
2000, 5, 8.2, 2.097, 1.79, 15.1, 41.0, 75.48, 0.2104, 0.2912, 9.975e-05, 0.6681, 0.3587, 2.908, 0.2078, 18.79, 18.49, 152.2, 0.243, 1.508, 1.271, 16.48, 20.5, 14.09
2001, 2, 15.5, 3.086, 2.21, 34.71, 31.0, 69.42, 0.4858, 0.2331, 0.0002247, 1.801, 0.9148, 13.83, 0.4878, 19.71, 18.84, 296.9, 0.4993, 2.446, 1.745, 16.45, 20.25, 12.89
2002, 0, nan, nan, nan, nan, 0.0, 0.0, nan, nan, nan, nan, nan, nan, nan, nan, nan, nan, nan, nan, nan, 16.46, 21.24, 14.07
2003, 7, 13.14, 2.559, 2.043, 29.25, 92.0, 204.8, 0.3066, 0.1903, 0.0001346, 1.081, 0.5607, 8.527, 0.3075, 18.88, 18.36, 249.5, 0.3044, 1.772, 1.421, 17.22, 21.54, 13.38
2004, 4, 11.25, 2.493, 1.98, 22.25, 45.0, 88.99, 0.2898, 0.2218, 0.0001103, 0.896, 0.3807, 5.849, 0.2837, 19.36, 18.86, 207.6, 0.3305, 1.618, 1.264, 16.7, 19.89, 14.0
2005, 2, 9.5, 1.881, 1.577, 14.99, 19.0, 29.99, 0.2338, 0.5493, 9.667e-05, 0.7207, 0.3904, 3.669, 0.2617, 17.42, 17.17, 163.2, 0.1954, 1.638, 1.344, 16.91, 20.09, 14.54
2006, 2, 12.0, 2.61, 2.199, 26.39, 24.0, 52.77, 0.2219, 0.1572, 0.0001471, 0.8485, 0.4513, 5.559, 0.2212, 19.94, 19.56, 235.0, 0.2989, 1.496, 1.267, 16.16, 20.32, 13.38
2007, 4, 18.0, 2.131, 1.667, 28.55, 72.0, 114.2, 0.2602, 0.171, 9.988e-05, 0.894, 0.4211, 8.492, 0.2557, 17.53, 17.07, 302.7, 0.2572, 1.755, 1.353, 16.29, 19.93, 13.03
2008, 2, 8.5, 1.518, 1.283, 11.59, 17.0, 23.18, 0.117, 0.3619, 4.891e-05, 0.4197, 0.2146, 2.132, 0.1158, 16.83, 16.54, 142.7, 0.1201, 1.366, 1.195, 15.42, 19.04, 11.6
2009, 3, 6.333, 1.584, 1.359, 8.651, 19.0, 25.95, 0.1496, 0.2544, 5.385e-05, 0.6134, 0.3868, 2.509, 0.1492, 16.69, 16.46, 104.3, 0.1546, 1.638, 1.405, 15.74, 19.06, 12.85
2010, 0, nan, nan, nan, nan, 0.0, 0.0, nan, nan, nan, nan, nan, nan, nan, nan, nan, nan, nan, nan, nan, 15.42, 20.72, 11.91
2011, 0, nan, nan, nan, nan, 0.0, 0.0, nan, nan, nan, nan, nan, nan, nan, nan, nan, nan, nan, nan, nan, 14.97, 18.91, 12.21
2012, 1, 5.0, 1.992, 1.835, 9.177, 5.0, 9.177, 0.0975, 0.1175, 3.763e-05, 0.4971, 0.3343, 1.671, 0.1026, 19.95, 19.78, 98.89, 0.1102, 1.332, 1.223, 15.72, 19.95, 12.63
2013, 1, 7.0, 4.611, 2.881, 20.17, 7.0, 20.17, 0.9836, 0.9622, 0.0003151, 3.133, 1.405, 9.836, 0.9844, 21.02, 19.29, 135.0, 0.9811, 3.119, 1.953, 15.68, 21.02, 12.55
2014, 2, 22.5, 1.96, 1.389, 33.25, 45.0, 66.49, 0.2347, 0.24, 8.276e-05, 0.9551, 0.4047, 11.03, 0.2276, 17.01, 16.37, 371.3, 0.2642, 1.942, 1.408, 16.03, 20.18, 12.71
